Folder: system_level

Note: README.md
# system_level

Executing the Code:
The main system-level script is RHYNO_MASTER.m
The following dependencies are required:
- Optimisation Toolbox V8.4
- Global Optimisation Toolbox V4.2
The .csv files and Matlab scripts found in the same folder in this repository are all required to execute the script.

Run time for the system-level script was 1.352243 seconds on 2.8GHz on Windows 10.

File: BatterySet.xlsb.csv
Name ,Brand,Cost (GBP),Operating Voltage (V),"Discharge Cutoff, Min. Cell Voltage (V)",Min Capacity (Ah),Max. Cont. Discharge Current (A),C Rating (Formula),C Rating (From Sheet),Cell duration at max. Cont. Discharge (Ah/A) [unit.= hours],"Cell Length (L, mm)",Cell Cross-Section (mm^2),Cell Diameter (mm),Cell Weight (KG) ,Number of Cells (Discharge Cutoff Voltage),PackWeight (Kg),PackVolume  (mm^3),PackCost (GBP),Output Capacity  (Ah),Max Pack Power (W),Cell Current (PackAt250W),"Difference: (Max Current Discharge) - (Cell Current, Power = 250) ",CellRunTimeAt250W (hour),
Li-Mn 3.7V 350mAh FT,'EFEST',3.9,3.7,3,0.35,1.4,4,4,0.25,44,80.9113,10.15,0.018,10,0.18,35601,39,3.5,51.8,6.75676,-5.35676,0.0518,
3.7V 2.2Ah FT,'Samsung',4.77,3.7,2.75,2.2,10,4.54545,1,0.22,65,260.148,18.2,0.044,11,0.484,186006,52.47,24.2,407,6.14251,3.85749,0.35816,
3.7V 880mAh CT,'TrustFire',4.9,3.7,3,0.88,1.2,1.36364,2,0.733333,34,201.056,16,0.019,10,0.19,68359.04,49,8.8,44.4,6.75676,-5.55676,0.13024,
3.7V 650mAh CT,'EFEST',5.24,3.7,3,0.65,0.65,1,1,1,50.4,156.14,14.1,0.025,10,0.25,78694.8,52.4,6.5,24.05,6.75676,-6.10676,0.0962,
3.7V 650mAh FT,'EFEST',5.9,3.7,3,0.65,0.975,1.5,1.5,0.666667,50,153.9335,14,0.022,10,0.22,76966.75,59,6.5,36.075,6.75676,-5.78176,0.0962,
3.6V 2Ah FT,'Samsung',5.9,3.6,2.5,2,22,11,0.2,0.0909091,64.85,263.877,18.33,0.045,12,0.54,205349,70.8,24,950.4,5.78704,16.213,0.3456,
Li-Mn 3.7V 950mAh FT,'EFEST',5.9,3.7,3,0.95,14.25,15,15,0.0666667,65,153.9335,14,0.024,10,0.24,100056.775,59,9.5,527.25,6.75676,7.49324,0.1406,
Li-Mn 3.7V 700mAh CT,'EFEST',6,3.7,3,0.7,7,10,10,0.1,34,211.234,16.4,0.046,10,0.46,71819.7,60,7,259,6.75676,0.243243,0.1036,
3.7V 2.5Ah FT,'Samsung',6.02,3.7,2.5,2.5,20,8,0.2,0.125,64.9,263.877,18.33,0.045,12,0.54,205508,72.24,30,888,5.63063,14.3694,0.444,
Li-Mn HD 3.7V 2Ah CT,'EFEST',7.21,3.7,3,2,20,10,10,0.1,65,254.4615,18,0.045,10,0.45,165399.975,72.1,20,740,6.75676,13.2432,0.296,
3.7V 2.5Ah T2,'NX',7.51,3.7,2.75,2.5,2.5,1,1,1,65.15,265.897,18.4,0.045,11,0.495,190555,82.61,27.5,101.75,6.14251,-3.64251,0.407,
3.6V 2.9Ah FT,'Panasonic',7.9,3.6,2.5,2.9,1.4,0.482759,1,2.07143,65,254.4615,18,0.047,12,0.564,198479.97,94.8,34.8,60.48,5.78704,-4.38704,0.50112,
3.6V 3.4Ah FT,'Panasonic',8.22,3.6,2.5,3.4,1,0.294118,1,3.4,65.3,268.795,18.5,0.0475,12,0.57,210627,98.64,40.8,43.2,5.78704,-4.78704,0.58752,
Li-Ion FT 3.7V 1500mAh,'SANYO',8.59,3.7,2.5,1.5,1.5,1,2,1,49.1,243.278,17.6,0.0345,12,0.414,143339,103.08,18,66.6,5.63063,-4.13063,0.2664,
3.6V 3.4Ah CT,'NX',9.44,3.6,2.5,3.4,1.6,0.470588,0.5,2.125,67,268.795,18.5,0.047,12,0.564,216111,113.28,40.8,69.12,5.78704,-4.18704,0.58752,
3.6V 3000mAh FT,'Sony',11.9,3.6,2,3,10,3.33333,1,0.3,65.2,268.795,18.5,0.0465,15,0.6975,262881,178.5,45,540,4.62963,5.37037,0.648,
3.6V 3.5Ah FT,'LG',11.9,3.6,2.5,3.5,10,2.85714,0.2,0.35,65,265.897,18.4,0.049,12,0.588,207399,142.8,42,432,5.78704,4.21296,0.6048,6.61376
Li-Mn HD 3.7V 3Ah FT,'Efest',11.9,3.7,2.5,3,20,6.66667,0.2,0.15,65,254.4615,18,0.045,12,0.54,198479.97,142.8,36,888,5.63063,14.3694,0.5328,
3.6V 3.4Ah CT,'NX',12,3.6,2.5,3.4,6.8,2,0.2,0.5,69.75,270.833,18.57,0.055,12,0.66,226687,144,40.8,293.76,5.78704,1.01296,0.58752,
3.7V 3000mAh FT,'Efest',15.9,3.7,2.5,3,9,3,3,0.333333,65.5,397.596,22.5,0.0635,12,0.762,312511,190.8,36,399.6,5.63063,3.36937,0.5328,
3.7V 4200mAh FT,'Efest',16.9,3.7,3,4.2,40,9.52381,9,0.105,65.2,551.53,26.5,0.095,10,0.95,359597,169,42,1480,6.75676,33.2432,0.6216,
40T 3.6V 4000mAh FT,'Samsung',17.9,3.6,2.5,4,34,8.5,0.2,0.117647,70.3,353.645,21.22,0.07,12,0.84,298335,214.8,48,1468.8,5.78704,28.213,0.6912,
 3.7V 2Ah T2,'Samsung',7.56,3.7,2.75,2,22,11,10,0.0909091,66,265.897,18.4,0.0456,11,0.5016,193041,83.16,22,895.4,6.14251,15.8575,0.3256,
 Li-Mn 3.7V 3000mAh FT,Efest,16.9,3.7,2.5,3,30,10,10,0.1,70.2,330.054,20.5,0.056,12,0.672,278037.358,202.8,36,1332,5.63063,24.3694,0.5328,
Li-Mn 3.7V 3500mAh FT,EFEST,15.9,3.7,2.5,3.5,35,10,10,0.1,65.2,268.795,18.5,0.047,12,0.564,210305,190.8,42,1554,5.63063,29.3694,0.6216,
Li-Mn HD 3.7V 4200mAh FT,Efest,16.9,3.7,2.5,4.2,40,9.52381,10,0.105,67,530.9135,26,0.091,12,1.092,426854.454,202.8,50.4,1776,5.63063,34.3694,0.74592,